Folder: turbogap/randomized_C_27000

File: xps_carbon_black_interpolated.dat
   280.036     0.006775
   280.101     0.004448
   280.165     0.002122
   280.23     0.003276
   280.294     0.005233
   280.359     0.005292
   280.423     0.003268
   280.488     0.002064
   280.553     0.003733
   280.617     0.005361
   280.682     0.006292
   280.746     0.007222
   280.811     0.006873
   280.875     0.005976
   280.94     0.005188
   281.004     0.004596
   281.069     0.004004
   281.134     0.002930
   281.198     0.001840
   281.263     0.002358
   281.327     0.003117
   281.392     0.005509
   281.456     0.009043
   281.521     0.012412
   281.586     0.013423
   281.65     0.014433
   281.715     0.014566
   281.779     0.014694
   281.844     0.015740
   281.908     0.017351
   281.973     0.018962
   282.037     0.021530
   282.102     0.025906
   282.167     0.030283
   282.231     0.033798
   282.296     0.037294
   282.36     0.041918
   282.425     0.046758
   282.489     0.051837
   282.554     0.057020
   282.619     0.066738
   282.683     0.077218
   282.748     0.078882
   282.812     0.099107
   282.877     0.115750
   282.941     0.133274
   283.006     0.157810
   283.071     0.178444
   283.135     0.201464
   283.2     0.226997
   283.264     0.260981
   283.329     0.296742
   283.393     0.335007
   283.458     0.374795
   283.522     0.416473
   283.587     0.460228
   283.652     0.502366
   283.716     0.544360
   283.781     0.590757
   283.845     0.631519
   283.91     0.667558
   283.974     0.709110
   284.039     0.745667
   284.104     0.775657
   284.168     0.800554
   284.233     0.821757
   284.297     0.836268
   284.362     0.845423
   284.426     0.851692
   284.491     0.852051
   284.555     0.847356
   284.62     0.841005
   284.685     0.827764
   284.749     0.809805
   284.814     0.788691
   284.878     0.771193
   284.943     0.751600
   285.007     0.729287
   285.072     0.703455
   285.137     0.677893
   285.201     0.653566
   285.266     0.628370
   285.33     0.604810
   285.395     0.585317
   285.459     0.564900
   285.524     0.542804
   285.588     0.517414
   285.653     0.497814
   285.718     0.480319
   285.782     0.463267
   285.847     0.443334
   285.911     0.420803
   285.976     0.401455
   286.04     0.383019
   286.105     0.365269
   286.17     0.351632
   286.234     0.338255
   286.299     0.325506
   286.363     0.313312
   286.428     0.302795
   286.492     0.288904
   286.557     0.277889
   286.621     0.269760
   286.686     0.261471
   286.751     0.252715
   286.815     0.243976
   286.88     0.235256
   286.944     0.226559
   287.009     0.218192
   287.073     0.209687
   287.138     0.198960
   287.203     0.189783
   287.267     0.182645
   287.332     0.171764
   287.396     0.163306
   287.461     0.157115
   287.525     0.150146
   287.59     0.143097
   287.654     0.136543
   287.719     0.130420
   287.784     0.124816
   287.848     0.120610
   287.913     0.114103
   287.977     0.105623
   288.042     0.100517
   288.106     0.095417
   288.171     0.090665
   288.236     0.085913
   288.3     0.083614
   288.365     0.082050
   288.429     0.081935
   288.494     0.082124
   288.558     0.081782
   288.623     0.081094
   288.687     0.080236
   288.752     0.077355
   288.817     0.074475
   288.881     0.072448
   288.946     0.071334
   289.01     0.070927
   289.075     0.071732
   289.139     0.072536
   289.204     0.069776
   289.269     0.066211
   289.333     0.064293
   289.398     0.064322
   289.462     0.063349
   289.527     0.060300
   289.591     0.056476
   289.656     0.051487
   289.72     0.046635
   289.785     0.045016
   289.85     0.043397
   289.914     0.040993
   289.979     0.038029
   290.043     0.035102
   290.108     0.032941
   290.172     0.030779
   290.237     0.027758
   290.302     0.024686
   290.366     0.022162
   290.431     0.019811
   290.495     0.017828
   290.56     0.015884
   290.624     0.014119
   290.689     0.013018
   290.753     0.011918
   290.818     0.011973
   290.883     0.012438
   290.947     0.011034
   291.012     0.006142
   291.076     0.003437
   291.141     0.005277
   291.205     0.006891
   291.27     0.004490
   291.335     0.002093
   291.399     0.004531
   291.464     0.006970
   291.528     0.005708
   291.593     0.003649
   291.657     0.001590
   291.722     0.001941
   291.786     0.002624
   291.851     0.003895
   291.916     0.005166
   291.98     0.006108
   292.045     0.007001
   292.109     0.005488
   292.174     0.002538
   292.238     0.000332
   292.303     0.000166
   292.368     0.000000
   292.432     0.000260
   292.497     0.000993
   292.561     0.002121
   292.626     0.004762
   292.69     0.006604
   292.755     0.004929
   292.819     0.003255
   292.884     0.003295
   292.949     0.003705

File: xps_glassy_carbon_brunetti_2012_subtracted_background.dat
   282.15     0.000000
   282.3     0.000000
   282.45     0.000000
   282.6     0.000000
   282.75     0.000000
   282.9     0.006049
   283.05     0.018140
   283.2     0.030222
   283.35     0.054431
   283.5     0.083505
   283.65     0.147066
   283.8     0.228606
   283.95     0.338647
   284.1     0.480331
   284.25     0.648826
   284.4     0.759228
   284.55     0.807969
   284.7     0.752465
   284.85     0.654445
   285     0.542532
   285.15     0.419324
   285.3     0.339042
   285.45     0.297942
   285.6     0.251505
   285.75     0.228022
   285.9     0.224813
   286.05     0.222323
   286.2     0.216272
   286.35     0.210118
   286.5     0.192032
   286.65     0.173452
   286.8     0.149659
   286.95     0.128936
   287.1     0.110405
   287.25     0.101823
   287.4     0.096978
   287.55     0.092256
   287.7     0.085671
   287.85     0.084560
   288     0.080157
   288.15     0.073877
   288.3     0.071083
   288.45     0.071083
   288.6     0.071083
   288.75     0.071083
   288.9     0.071083
   289.05     0.071075
   289.2     0.065032
   289.35     0.054599
   289.5     0.045540
   289.65     0.035693
   289.8     0.024343
   289.95     0.018740
   290.1     0.013085

File: xrd_carbon_black_low_temp_converted_to_q_normalized.dat
     0.727156    15.7964
     0.758808    15.7986
     0.790447    15.8327
     0.822075    15.9044
     0.853690    15.9761
     0.885292    16.0808
     0.916881    16.2274
     0.948455    16.3741
     0.980016    16.6272
     1.011561    17.1133
     1.043091    17.5995
     1.074606    18.1197
     1.106104    18.7068
     1.137585    19.2939
     1.169049    19.964
     1.200495    20.6914
     1.231923    21.4188
     1.263332    22.5567
     1.294722    23.8296
     1.326093    25.4904
     1.357443    27.135
     1.388773    28.8567
     1.420081    31.6609
     1.451368    34.182
     1.482633    38.1902
     1.513876    41.638
     1.545095    46.0283
     1.576291    50.5286
     1.607463    55.9757
     1.638611    61.5418
     1.669734    67.5192
     1.700831    70.0372
     1.731903    70.7266
     1.762948    69.0971
     1.793967    62.597
     1.824958    55.6733
     1.855922    44.6704
     1.886857    35.8388
     1.917764    30.2858
     1.948641    24.5271
     1.979490    19.9459
     2.010308    16.7525
     2.041095    14.2687
     2.071852    12.0758
     2.102577    10.6839
     2.133270     9.504378
     2.163931     8.550508
     2.194558     7.728979
     2.225153     7.093113
     2.255714     6.602591
     2.286240     6.334058
     2.316732     6.065524
     2.347189     5.881175
     2.377610     5.782759
     2.407995     5.684342
     2.438343     5.596209
     2.468655     5.558646
     2.498928     5.521084
     2.529164     5.483521
     2.559362     5.605582
     2.589521     5.761405
     2.619640     5.917227
     2.649719     6.165842
     2.679759     6.417326
     2.709757     6.668810
     2.739715     7.484095
     2.769631     8.383401
     2.799505     9.386601
     2.829336    10.8456
     2.859124    12.446
     2.888869    14.253
     2.918571    15.9031
     2.948227    17.2115
     2.977839    17.8501
     3.007406    17.749
     3.036927    16.8854
     3.066403    15.4203
     3.095831    14.2672
     3.125213    13.2068
     3.154547    12.2533
     3.183833    11.4962
     3.213071    10.8411
     3.242260    10.4318
     3.271400    10.0224
     3.300490     9.671419
     3.329530     9.409047
     3.358519     9.146675
     3.387458     8.885845
     3.416345     8.628444
     3.445180     8.371042
     3.473963     8.184216
     3.502693     8.114139
     3.531370     8.044061
     3.559993     7.840501
     3.588563     7.557733
     3.617077     7.274965
     3.645537     7.008428
     3.673942     6.769320
     3.702291     6.530211
     3.730583     6.295703
     3.758819     6.084694
     3.786998     5.873685
     3.815119     5.661822
     3.843183     5.442393
     3.871188     5.222964
     3.899134     5.003921
     3.927021     4.837932
     3.954848     4.671942
     3.982616     4.505952
     4.010323     4.373599
     4.037969     4.244488
     4.065554     4.115378
     4.093077     4.047431
     4.120538     3.993259
     4.147936     3.939088
     4.175271     3.866540
     4.202543     3.785552
     4.229751     3.704563
     4.256895     3.650270
     4.283974     3.612205
     4.310989     3.574140
     4.337937     3.513740
     4.364820     3.433071
     4.391637     3.352402
     4.418387     3.279459
     4.445070     3.216867
     4.471685     3.154275
     4.498233     3.109367
     4.524712     3.100337
     4.551123     3.091306
     4.577464     3.084369
     4.603736     3.084369
     4.629938     3.084369
     4.656070     3.084541
     4.682131     3.085831
     4.708121     3.087121
     4.734039     3.089830
     4.759886     3.131745
     4.785660     3.173660
     4.811362     3.215574
     4.836990     3.323807
     4.862545     3.436603
     4.888027     3.549399
     4.913434     3.724717
     4.938766     3.912399
     4.964024     4.100080
     4.989206     4.373625
     5.014313     4.671430
     5.039343     4.969235
     5.064297     5.342317
     5.089174     5.753656
     5.113973     6.164996
     5.138695     6.376251
     5.163339     6.403941
     5.187905     6.431630
     5.212391     6.421829
     5.236799     6.321731
     5.261127     6.221633
     5.285375     6.089265
     5.309543     5.890160
     5.333631     5.691056
     5.357637     5.489193
     5.381562     5.278170
     5.405406     5.067148
     5.429167     4.872413
     5.452846     4.780120
     5.476442     4.687828
     5.499955     4.595143
     5.523384     4.493163
     5.546730     4.391184
     5.569991     4.289204
     5.593168     4.185823
     5.616260     4.082359
     5.639266     3.978895
     5.662187     3.883621
     5.685022     3.790385
     5.707771     3.697149
     5.730433     3.675883
     5.753008     3.678463
     5.775496     3.681043
     5.797896     3.680480
     5.820208     3.678244
     5.842431     3.676008
     5.864566     3.666240
     5.886612     3.650414
     5.908569     3.634588
     5.930435     3.598907
     5.952212     3.539543
     5.973898     3.480178
     5.995494     3.434011
     6.016999     3.411432
     6.038412     3.388853
     6.059733     3.358703
     6.080963     3.307084
     6.102100     3.255466
     6.123145     3.214384
     6.144096     3.227283
     6.164955     3.240182
     6.185720     3.247121
     6.206390     3.167744
     6.226967     3.088366